File: wf_data/pub_723/DS0747/Figure_5_XRD_air_milled_LaMnO3.dat
SampleIdent ____ DataFileName ______
DiffrType ______   GeneratorVoltage __   TubeCurrent __
Anode __    Alpha1  1.54060    Alpha2  1.54439    Ratio  0.50000
MonochromatorUsed __   DivergenceSlit _      ReceivingSlit ___
  10.000   0.045 130.057    MeasureDateTime 08/11/2016   09:11
    1199    1215    1205    1190    1196    1114    1131    1079    1195    1161
    1115    1132    1111    1061    1117    1106    1026    1032    1057    1075
    1087    1055     999    1009    1065    1062    1024    1021    1024    1017
    1019     957     958    1022     965     949     998    1000     926     921
     980     902     899     947     892     955     963     921     932     864
     914     940     898     879     894     900     912     861     864     812
     838     818     838     810     831     807     807     804     859     820
     828     857     807     792     837     764     797     776     805     748
     782     732     780     813     734     709     764     741     714     722
     721     723     724     750     716     759     701     711     684     678
     689     674     697     695     719     644     666     696     716     636
     636     646     687     661     627     627     690     652     633     647
     680     621     627     637     621     685     668     653     632     607
     635     631     642     628     651     591     588     562     587     600
     578     577     587     581     563     591     612     556     543     562
     579     558     560     546     521     550     532     542     549     562
     565     517     557     557     515     560     513     536     513     503
     538     544     517     547     512     541     517     519     528     473
     522     515     483     498     530     481     559     542     500     488
     498     513     472     489     495     487     482     518     462     450
     484     468     476     441     473     460     460     505     478     420
     457     464     441     461     452     469     443     443     456     439
     427     439     439     456     460     464     489     456     440     448
     454     431     428     455     411     489     462     444     454     419
     451     444     427     413     416     444     439     446     406     434
     457     455     422     438     422     420     424     440     419     434
     442     473     448     447     475     450     481     479     460     476
     461     509     519     486     549     548     559     584     646     617
     692     648     707     703     718     730     768     733     739     755
     719     724     670     623     661     629     562     567     540     499
     492     490     480     441     442     444     450     452     421     448
     425     429     462     400     404     400     376     447     421     385
     422     429     425     428     380     411     400     456     445     451
     420     425     431     414     399     391     394     422     407     404
     408     425     411     427     422     443     432     404     419     449
     395     377     425     430     429     437     411     442     449     467
     420     416     442     415     408     475     430     467     448     467
     461     455     474     462     445     469     461     476     469     462
     461     440     440     448     426     463     466     453     497     538
     500     462     495     464     491     508     487     504     508     514
     511     470     543     540     478     519     460     477     467     511
     546     491     501     545     532     528     509     524     493     501
     537     521     504     531     551     556     531     512     563     503
     582     545     533     561     574     578     538     573     564     584
     550     553     585     556     580     575     616     581     601     548
     593     559     586     560     616     570     572     568     599     577
     564     582     572     601     606     586     614     597     584     620
     626     645     645     652     669     687     705     747     733     750
     788     811     822     904     960     966     992    1054    1144    1202
    1392    1333    1473    1591    1689    1875    1958    2030    2138    2312
    2287    2526    2419    2498    2640    2570    2471    2426    2371    2296
    2127    1999    1884    1694    1555    1467    1321    1218    1147    1063
     980     861     794     774     708     651     630     591     554     536
     532     464     461     460     439     438     366     383     333     350
     325     312     295     316     321     314     297     307     279     284
     316     303     259     264     247     258     257     266     241     242
     246     232     250     237     238     234     232     242     219     212
     207     220     212     205     203     203     212     203     222     176
     253     199     226     180     183     171     209     192     216     226
     204     205     185     185     185     198     198     186     195     178
     197     182     194     181     184     165     194     175     203     175
     182     204     211     181     205     205     196     216     184     207
     205     206     180     225     205     194     219     197     183     203
     185     213     199     218     227     237     235     212     242     241
     198     211     239     200     244     223     238     227     244     263
     207     265     269     241     290     292     274     323     329     358
     347     349     403     430     416     494     492     493     489     488
     531     579     539     601     588     522     564     564     543     499
     484     487     467     419     437     406     429     416     343     376
     350     335     331     336     298     269     315     316     288     279
     230     238     273     242     250     219     239     239     230     228
     234     246     223     183     218     251     228     203     235     206
     244     217     206     224     212     222     222     200     221     195
     196     186     214     212     204     216     241     186     236     202
     210     213     214     203     213     211     219     219     210     199
     207     206     197     194     238     192     199     212     199     209
     205     220     213     210     206     231     230     208     228     213
     220     219     210     237     229     247     265     235     209     248
     259     206     260     232     223     249     250     263     254     303
     266     286     274     305     313     311     333     309     346     322
     332     436     395     407     411     460     486     503     511     538
     545     552     630     625     677     633     695     725     701     769
     728     739     803     728     688     720     695     664     645     593
     607     564     544     512     490     431     423     434     416     403
     364     382     380     323     307     319     313     290     283     233
     251     280     276     263     218     256     253     247     240     250
     277     240     257     234     240     225     252     232     235     205
     255     238     238     208     208     175     212     217     206     203
     191     230     203     203     210     203     222     191     208     173
     188     197     195     212     222     198     206     213     188     205
     209     205     186     194     181     207     224     188     171     185
     212     192     216     205     184     227     185     210     224     226
     201     183     197     212     220     184     203     208     240     226
     204     216     227     233     250     260     254     268     256     222
     264     246     247     306     286     256     294     279     312     318
     307     300     302     250     268     290     292     273     291     250
     262     250     283     266     247     270     242     226     227     247
     231     216     227     248     202     209     197     212     214     203
     194     202     223     206     198     174     175     180     174     191
     201     179     184     170     191     180     187     177     228     199
     209     196     215     178     204     198     176     176     201     210
     214     215     201     228     208     230     211     196     224     223
     215     233     222     228     193     204     216     197     239     212
     240     254     237     212     211     229     220     236     238     248
     264     246     249     267     237     258     280     312     323     276
     297     351     325     318     360     363     429     425     453     440
     477     477     485     528     523     568     604     608     615     681
     672     685     713     733     679     695     739     722     686     662
     644     678     592     587     594     518     547     540     490     447
     471     418     387     370     396     370     340     366     306     307
     289     298     271     247     230     217     267     250     237     225
     192     202     205     214     205     205     190     190     184     182
     189     158     152     163     151     177     151     152     158     151
     147     153     141     160     131     173     133     144     133     151
     136     151     123     131     151     141     127     141     157     140
     149     136     126     128     145     131     122     144     140     148
     136     129     118     158     128     122     125     125     115     136
     112     136     123     119     135     138     138     130     125     108
     130     118     108     114     103     126     106     108     114     107
     110     124     126     116     123     107     112     119     120     124
     118     101     122     118     122     107     114     112     126     134
     106     140     114     127     109     123     120     125     138     123
     115     122     117     108     125     115     118     115     114     114
     113     114     103     136     129     123     107     105     116     114
     122     122     133     124     133     150     148     139     145     130
     123     143     141     128     120     119     114     143     133     119
     132     141     128     133     134     143     176     176     160     152
     158     152     152     144     181     158     162     164     191     179
     198     221     193     232     191     243     224     211     221     237
     259     273     261     252     266     326     282     285     296     285
     262     298     289     286     273     294     290     254     279     286
     290     288     257     277     268     265     235     241     214     224
     220     191     180     184     186     182     190     176     157     178
     156     157     147     155     183     131     150     129     153     129
     133     145     137     131     134     115     131     133     121     120
     102     122     112     124     119     101     112     103     126     101
     124     128     104     118     114     100     115     120      97     113
     125     103     114     126     114      95     108     114     127     118
     146     119     134     115     116     116     128     134     114     126
     127     137     136     139     153     116     126     135     131     152
     131     161     137     137     163     143     148     127     150     132
     138     129     126     150     138     135     150     122     129     127
     141     152     149     109     140     126     125     119     131     121
     107     119      97     115     119     112     129     117     104     120
     113     115     121     112     133     109     112     116     120     102
     130     116     124     120     116     130     110      99     107     128
     116     124     119     134     141     117     135     133     123     124
     129     126     146     135     147     137     141     130     127     160
     162     146     133     182     156     183     194     164     177     167
     170     188     175     179     201     193     194     218     215     216
     209     185     213     254     226     276     251     255     257     223
     250     228     216     245     257     235     268     235     257     229
     216     234     230     260     229     221     208     215     201     223
     201     190     186     204     186     157     151     183     162     169
     189     151     192     149     147     167     153     133     144     122
     125     134     151     128     128     122     135     122     116     128
     127     105     130     108     116     131     126     122     120     108
      97     118     117     127     119     116     117     125     103     100
     114     101     113     135     125     129     135     108     114     120
     118     121     109     138     121     127     112     127     129     123
     141     107     108     143     134     121     130     126     127     131
     164     126     133     121     119     135     117     136     131     117
     129     135     155     132     121     114     144     142     122     116
     119     120     138     115     112     111     105     137     111     134
     113     108     113     106      98      97     108      99     115     117
     111     116     122      84     104     112     117      98     111     101
     118      89     110      97      91     116     117     113      97      98
     112     122      95     110      92     104      99     111     104     114
      98     101     118     118     120     107     124     114     101     109
     126     118     116     128     100     126     117     107     114     104
     139     137     120     151     123     130     121     144     116     143
     137     157     137     148     137     144     132     149     114     134
     144     145     116     122     118     121     128     139     149     123
     131     115     117     127     111     131     113     121     123     118
     119     117     121     102     120     113     114     120     103     102
     111     119      92     108     122     132      85     116     117     108
     114      99     104     110      92     102     108     113      97      87
      98      93     121     106      82     119     108     109     114     102
      98     113      92      82      93     101     122     116     117     105
     117     108      98     133      94     101     110     110     115      98
     110      89     119     108      96     107     127     120     112     135
     112     109     109     105     103     107     110     119     123      98
     126     125      91     119     103     103     107     101     119     111
      96     120     117     125     110     111     118      95     106      97
      99     103     104     100     115     101      97      90      93     118
     119     122      92     134     100     113     113     117     116     125
     111     117     106     111     126     120     123     124     134     127
     142     129     116     135     110     114     134     146     134     144
     127     145     122     161     142     137     150     139     155     158
     162     163     152     188     184     180     179     184     178     204
     187     185     221     210     218     190     210     192     210     243
     219     228     217     216     238     223     256     218     215     230
     209     224     217     207     210     205     213     196     179     213
     201     189     208     184     210     172     188     196     171     179
     180     163     168     151     166     185     145     160     131     139
     143     136     142     144     144     126     147     136     155     128
     139     129     111     118     132     111     115     116     108     118
     113     117      89      96     105     104      93     111     121      94
      99     121     106      99     101     103     103     103      96      93
      99      91     102     104      94      83     109      76      92      88
      79      86      89     100      79      91      87      88      91      82
      89      88     104      72      79      79      84      89      91      82
      80      88      93      79      91      83      87      90      86      97
      95      96      89      90     105      83      81      79      86      96
      75      65      92      82      78      85      83      86      88      79
     107      88      75     105      94      83      82      93      89      87
     100      88      90      93      98      83      79      83      90      88
      89      85      86      90      89      81     101      90      82      82
      98      83      83      92      99      75      92      69      98      78
      89      86      98      74      95      90      96      95      84     103
      87      87      90      97     103      99      94     105     104      96
      70      87      97     108     112      91      93      98      91      89
     110      92      90      98     107      98     102      83     100      77
     118     101     102      92     113     106      93     103      85      99
     106      95     110     109     116      75     101      95     102      82
      93      95      86      87      93      98      90     101      87      87
      98      90     121     102     107      88      94      91      93      96
     108      99      91     100      85     106      91      99      91      80
     112     103      91      83      93      78      90      91     101     113
      79      94      91     100     110      93     116      78      86      90
     102     112     106      97     103      96     102     120     121     105
     105     109     117     118     112     102     129     127     105     123
      94     120      91     119      99      95      92     106     104     111
     107     107     108     105     110     106     122     115     102     104
     110      91     107     115      97      93     110     130     100     103
      97     119     115      99     101      99     110     120     112      99
     106     110     128     107     106      72     132     125     122     112
      88     117     115     107     124     104     125     105     115     118
     138     118     122      94     131      99     134     134     109     136
     139     113     119     124     123     132     155     132     122     145
     160     123     140     131     145     132     130     148     142     147
     127     159     147     149     152     155     143     147     130     150
     163     179     161     136     128     157     163     188     165     163
     156     168     146     145     165     156     160     165     156     187
     157     162     162     163     158     174     154     170     180     172
     151     164     160     159     166     144     149     153     157     144
     161     125     137     146     152     149     144     146     152     142
     144     142     147     146     136     139     137     136     119     128
     133     142     119     134     123     144     111     127     137     124
     147     118     141     115      99      91     127     114     106     141
     134     134     131     127     127     111     128     113     113     108
     115     122     122     125     106     120     105      95      91     118
      96     102     124     125     113     114     118      97     117      95
      99      95     135     104     104     121     110     117     122      81
     115     108     101     120     109     112     114     112     125     122
     129     107     113     121     119     110     125     105     101     109
     116     104     108     124     118     110      92     117     122     127
     109     104     111     124     113     122     110     133     109     113
     112     112      97      99     110     127     121      98     117     108
     119     126      96     112     124     118     121     106     106      99
     117     107     104     125     118     130      99     113     125     106
     107     132     124     121     133     128     122     118     107     120
     118     119     134     121     127     138     134     117     135     113
     118     118     154     126     124     123     140     137     140     111
     125     149     137     119     125     136     152     160     153     142
     147     150     135     158     168     164     141     141     126     147
     141     145     144     145     146     136     131     163     123     153
     168     138     145     125     122     142     137     157     132     161
     155     120     157     131     165     146     125     128     159     130
     118     151     140     125     131     125     154     127     138     154
     150     144     112     154     132     147     123     152     120     108
     129     138     146     142     131     153     130     145     126     121
     140     140     107     136     109     109     109     135     145     151
     124     137     125     122     101     124     123     134     129     118
     129     131     107     140     120     135     138     116     112      95
     118     119     104     118     106     115     118     126     109     113
     118     132     124     130     143     125      96     132     122     123
     131     124     102     109     121     123     113     116     126     108
     122      99     118     139     118     110     138     120     153     112
     134     103     110     106     118     117